File: December Final/exampleData.mpt
EC-Lab ASCII FILE
Nb header lines : 63

Potentio Electrochemical Impedance Spectroscopy

Run on channel : 2 (SN 52159)
User :
CE vs. WE compliance from -10 V to 10 V
Electrode connection : standard
Potential control : Ewe
Ewe ctrl range : min = -10.00 V, max = 10.00 V
Safety Limits :
	Do not start on E overload
Acquisition started on : 10/12/2023 10:00:32.686
Loaded Setting File :  NONE
Saved on :
	File : AKS-31_Uncompressed__T-Cell_C6_PVDF_94_6_10mM_TBACLO4_EC_EMC_3_7_317_200kHz-10mHz_10mV_Cell2_C01_C02.mpr
	Directory : D:\Abhishek\T-Cell_AKS31_2023_10_12\
	Host : 192.168.0.10
Device : VSP-3e (SN .003361)
Address : 192.168.0.1
EC-Lab for windows v11.50 (software)
Internet server v11.50 (firmware)
Command interpretor v11.50 (firmware)
Electrode material :
Initial state :
Electrolyte :
Comments :
Electrode surface area : 0.001 cm²
Characteristic mass : 0.001 g
Equivalent Weight : 0.000 g/eq.
Density : 0.000 g/cm3
Volume (V) : 0.001 cm³
Cycle Definition : Charge/Discharge alternance
Mode                Single sine
E (V)               0.0000
vs.                 Eoc
tE (h:m:s)          0:00:0.0000
record              0
dI                  0.000
unit dI             mA
dt (s)              0.000
fi                  200.000
unit fi             kHz
ff                  10.000
unit ff             mHz
Nd                  10
Points              per decade
spacing             Logarithmic
Va (mV)             10.0
pw                  3.00
Na                  5
corr                0
E range min (V)     -10.000
E range max (V)     10.000
I Range             Auto
Bandwidth           5
nc cycles           0
goto Ns'            0
nr cycles           0
inc. cycle          0

freq/Hz	Re(Z)/Ohm	-Im(Z)/Ohm	|Z|/Ohm	Phase(Z)/deg	time/s	<Ewe>/V	<I>/mA	Cs/µF	Cp/µF	cycle number	I Range	|Ewe|/V	|I|/A	Ns	(Q-Qo)/mA.h	Re(Y)/Ohm-1	Im(Y)/Ohm-1	|Y|/Ohm-1	Phase(Y)/deg	Re(C)/nF	Im(C)/nF	|C|/nF	Phase(C)/deg	Re(M)	Im(M)	|M|	Phase(M)/deg	Re(Permittivity)	Im(Permittivity)	|Permittivity|	Phase(Permittivity)/deg	Re(Resistivity)/Ohm.cm	Im(Resistivity)/Ohm.cm	|Resistivity|/Ohm.cm	Phase(Resistivity)/deg	Re(Conductivity)/mS/cm	Im(Conductivity)/mS/cm	|Conductivity|/mS/cm	Phase(Conductivity)/deg	Tan(Delta)	Loss Angle(Delta)/deg	dq/mA.h
199998	52.5328	1.73657	52.5615	-1.89333	3.00848	0.00401461	0.00089341	0.458248	0.00050021	1	11	0.00988851	0.000188132	0	2.18986e-07	0.0190149	0.000628576	0.0190253	1.89333	0.500209	15.1318	15.14	-88.1067	0.0000000E+000	0.0000000E+000	0.0000000E+000	88.1067	0.0000000E+000	0.0000000E+000	0.0000000E+000	-88.1067	0.0000000E+000	0.0000000E+000	0.0000000E+000	-1.89333	0.0000000E+000	0.0000000E+000	0.0000000E+000	1.89333	30.2508	88.1067	2.18986e-07
158857	52.867	2.53382	52.9277	-2.74399	4.14248	0.0040361	0.000917445	0.3954	0.0009062	1	11	0.0103297	0.000195167	0	5.51003e-07	0.018872	0.000904505	0.0188937	2.74399	0.9062	18.9074	18.9291	-87.256	0.0000000E+000	0.0000000E+000	0.0000000E+000	87.256	0.0000000E+000	0.0000000E+000	0.0000000E+000	-87.256	0.0000000E+000	0.0000000E+000	0.0000000E+000	-2.74399	0.0000000E+000	0.0000000E+000	0.0000000E+000	2.74399	20.8645	87.256	3.32017e-07
126188	53.3182	3.23042	53.416	-3.46717	5.2755	0.00403512	0.00101191	0.390431	0.00142797	1	11	0.0103569	0.000193891	0	1.03074e-06	0.0186867	0.00113218	0.018721	3.46717	1.42797	23.5687	23.612	-86.5328	0.0000000E+000	0.0000000E+000	0.0000000E+000	86.5328	0.0000000E+000	0.0000000E+000	0.0000000E+000	-86.5328	0.0000000E+000	0.0000000E+000	0.0000000E+000	-3.46717	0.0000000E+000	0.0000000E+000	0.0000000E+000	3.46717	16.505	86.5328	4.79736e-07
100226	53.8537	3.92777	53.9967	-4.17143	6.40949	0.00403467	0.000883349	0.404289	0.00213919	1	11	0.0103239	0.000191195	0	1.22246e-06	0.0184706	0.00134714	0.0185196	4.17143	2.13919	29.3304	29.4083	-85.8286	0.0000000E+000	0.0000000E+000	0.0000000E+000	85.8286	0.0000000E+000	0.0000000E+000	0.0000000E+000	-85.8286	0.0000000E+000	0.0000000E+000	0.0000000E+000	-4.17143	0.0000000E+000	0.0000000E+000	0.0000000E+000	4.17143	13.711	85.8286	1.91726e-07
79609.6	54.4922	4.54318	54.6813	-4.7659	7.54249	0.00404358	0.000928996	0.440043	0.00303765	1	11	0.0102868	0.000188123	0	1.31067e-06	0.0182246	0.00151944	0.0182878	4.7659	3.03765	36.4344	36.5609	-85.2341	0.0000000E+000	0.0000000E+000	0.0000000E+000	85.2341	0.0000000E+000	0.0000000E+000	0.0000000E+000	-85.2341	0.0000000E+000	0.0000000E+000	0.0000000E+000	-4.7659	0.0000000E+000	0.0000000E+000	0.0000000E+000	4.7659	11.9943	85.2341	8.8205e-08
63233	55.2543	5.18562	55.4971	-5.36151	8.67649	0.00402967	0.000836211	0.485373	0.00423777	1	11	0.0102904	0.000185423	0	1.71544e-06	0.0179401	0.00168368	0.018019	5.36151	4.23777	45.1546	45.353	-84.6385	0.0000000E+000	0.0000000E+000	0.0000000E+000	84.6385	0.0000000E+000	0.0000000E+000	0.0000000E+000	-84.6385	0.0000000E+000	0.0000000E+000	0.0000000E+000	-5.36151	0.0000000E+000	0.0000000E+000	0.0000000E+000	5.36151	10.6553	84.6385	4.04767e-07
50224.5	56.0675	5.74252	56.3608	-5.84793	9.80949	0.00403375	0.000949304	0.551826	0.00572865	1	11	0.0102958	0.000182676	0	2.19683e-06	0.0176505	0.00180779	0.0177428	5.84793	5.72865	55.9321	56.2247	-84.1521	0.0000000E+000	0.0000000E+000	0.0000000E+000	84.1521	0.0000000E+000	0.0000000E+000	0.0000000E+000	-84.1521	0.0000000E+000	0.0000000E+000	0.0000000E+000	-5.84793	0.0000000E+000	0.0000000E+000	0.0000000E+000	5.84793	9.76357	84.1521	4.81392e-07
39897.6	57.0587	6.28294	57.4036	-6.28373	10.9425	0.00403224	0.000972407	0.634908	0.00760605	1	11	0.0102828	0.000179132	0	2.51134e-06	0.0173159	0.00190671	0.0174205	6.28373	7.60604	69.0745	69.492	-83.7163	0.0000000E+000	0.0000000E+000	0.0000000E+000	83.7163	0.0000000E+000	0.0000000E+000	0.0000000E+000	-83.7163	0.0000000E+000	0.0000000E+000	0.0000000E+000	-6.28373	0.0000000E+000	0.0000000E+000	0.0000000E+000	6.28373	9.08153	83.7163	3.14512e-07
31686.1	58.1453	6.83628	58.5458	-6.70562	12.0755	0.00404021	0.00100501	0.734736	0.010018	1	11	0.0102304	0.000174742	0	2.91782e-06	0.0169638	0.00199447	0.0170806	6.70562	10.018	85.2068	85.7937	-83.2944	0.0000000E+000	0.0000000E+000	0.0000000E+000	83.2944	0.0000000E+000	0.0000000E+000	0.0000000E+000	-83.2944	0.0000000E+000	0.0000000E+000	0.0000000E+000	-6.70562	0.0000000E+000	0.0000000E+000	0.0000000E+000	6.70562	8.5054	83.2944	4.06483e-07
25172.6	59.3512	7.26961	59.7947	-6.98308	13.2085	0.00403638	0.000971475	0.869723	0.0128552	1	11	0.0101891	0.000170402	0	3.49242e-06	0.0165998	0.00203323	0.0167239	6.98308	12.8552	104.953	105.738	-83.0169	0.0000000E+000	0.0000000E+000	0.0000000E+000	83.0169	0.0000000E+000	0.0000000E+000	0.0000000E+000	-83.0169	0.0000000E+000	0.0000000E+000	0.0000000E+000	-6.98308	0.0000000E+000	0.0000000E+000	0.0000000E+000	6.98308	8.16428	83.0169	5.74593e-07
19995.2	60.7411	7.59178	61.2137	-7.12422	14.3415	0.00405346	0.000873846	1.04846	0.0161265	1	11	0.01015	0.000165813	0	3.89116e-06	0.0162101	0.00202603	0.0163362	7.12422	16.1265	129.027	130.031	-82.8758	0.0000000E+000	0.0000000E+000	0.0000000E+000	82.8758	0.0000000E+000	0.0000000E+000	0.0000000E+000	-82.8758	0.0000000E+000	0.0000000E+000	0.0000000E+000	-7.12422	0.0000000E+000	0.0000000E+000	0.0000000E+000	7.12422	8.0009	82.8758	3.98738e-07
15884.8	62.0496	7.79445	62.5372	-7.1598	15.4745	0.00402421	0.000759262	1.28544	0.0199686	1	11	0.0101199	0.000161822	0	4.53589e-06	0.0158658	0.00199301	0.0159905	7.1598	19.9686	158.965	160.214	-82.8402	0.0000000E+000	0.0000000E+000	0.0000000E+000	82.8402	0.0000000E+000	0.0000000E+000	0.0000000E+000	-82.8402	0.0000000E+000	0.0000000E+000	0.0000000E+000	-7.1598	0.0000000E+000	0.0000000E+000	0.0000000E+000	7.1598	7.96073	82.8402	6.44735e-07
12618.8	63.4441	7.77047	63.9182	-6.98266	16.4715	0.00402585	0.000830807	1.62314	0.0239884	1	11	0.0107552	0.000168265	0	4.74969e-06	0.015529	0.00190195	0.015645	6.98266	23.9884	195.86	197.323	-83.0173	0.0000000E+000	0.0000000E+000	0.0000000E+000	83.0173	0.0000000E+000	0.0000000E+000	0.0000000E+000	-83.0173	0.0000000E+000	0.0000000E+000	0.0000000E+000	-6.98266	0.0000000E+000	0.0000000E+000	0.0000000E+000	6.98266	8.16477	83.0173	2.13801e-07
10020.8	64.784	7.7105	65.2412	-6.78733	17.6045	0.0040353	0.000904215	2.05985	0.0287711	1	11	0.0101293	0.000155259	0	5.06997e-06	0.0152203	0.0018115	0.0153277	6.78733	28.7711	241.736	243.442	-83.2127	0.0000000E+000	0.0000000E+000	0.0000000E+000	83.2127	0.0000000E+000	0.0000000E+000	0.0000000E+000	-83.2127	0.0000000E+000	0.0000000E+000	0.0000000E+000	-6.78733	0.0000000E+000	0.0000000E+000	0.0000000E+000	6.78733	8.40205	83.2127	3.2028e-07
7959.76	65.826	7.71047	66.2761	-6.68084	18.7587	0.00403407	0.000828571	2.59322	0.0350984	1	11	0.0103521	0.000156196	0	5.4634e-06	0.0149859	0.00175536	0.0150884	6.68084	35.0984	299.643	301.692	-83.3192	0.0000000E+000	0.0000000E+000	0.0000000E+000	83.3192	0.0000000E+000	0.0000000E+000	0.0000000E+000	-83.3192	0.0000000E+000	0.0000000E+000	0.0000000E+000	-6.68084	0.0000000E+000	0.0000000E+000	0.0000000E+000	6.68084	8.53723	83.3192	3.93433e-07
6323.82	67.1324	7.22697	67.5202	-6.14438	20.1703	0.00405141	0.000912785	3.48244	0.039896	1	11	0.0105233	0.000155854	0	6.00702e-06	0.0147253	0.00158522	0.0148104	6.14438	39.896	370.599	372.741	-83.8556	0.0000000E+000	0.0000000E+000	0.0000000E+000	83.8556	0.0000000E+000	0.0000000E+000	0.0000000E+000	-83.8556	0.0000000E+000	0.0000000E+000	0.0000000E+000	-6.14438	0.0000000E+000	0.0000000E+000	0.0000000E+000	6.14438	9.28914	83.8556	5.43617e-07
5021.61	68.1693	6.99587	68.5273	-5.85946	21.8737	0.00409239	0.00176108	4.53039	0.0472163	1	11	0.0106096	0.000154823	0	6.95777e-06	0.0145165	0.00148975	0.0145927	5.85946	47.2163	460.086	462.502	-84.1405	0.0000000E+000	0.0000000E+000	0.0000000E+000	84.1405	0.0000000E+000	0.0000000E+000	0.0000000E+000	-84.1405	0.0000000E+000	0.0000000E+000	0.0000000E+000	-5.85946	0.0000000E+000	0.0000000E+000	0.0000000E+000	5.85946	9.74422	84.1405	9.50746e-07
3986.17	69.1064	6.80393	69.4406	-5.62298	23.5769	0.00410544	0.00176536	5.86819	0.0563375	1	11	0.0106587	0.000153495	0	7.65381e-06	0.0143315	0.00141102	0.0144008	5.62298	56.3375	572.211	574.977	-84.377	0.0000000E+000	0.0000000E+000	0.0000000E+000	84.377	0.0000000E+000	0.0000000E+000	0.0000000E+000	-84.377	0.0000000E+000	0.0000000E+000	0.0000000E+000	-5.62298	0.0000000E+000	0.0000000E+000	0.0000000E+000	5.62298	10.1568	84.377	6.96041e-07
3166.96	69.9915	6.57496	70.2997	-5.36658	25.279	0.00409805	0.00169363	7.64336	0.0668597	1	11	0.0106933	0.00015211	0	8.55889e-06	0.0141625	0.00133041	0.0142248	5.36658	66.8597	711.732	714.865	-84.6334	0.0000000E+000	0.0000000E+000	0.0000000E+000	84.6334	0.0000000E+000	0.0000000E+000	0.0000000E+000	-84.6334	0.0000000E+000	0.0000000E+000	0.0000000E+000	-5.36658	0.0000000E+000	0.0000000E+000	0.0000000E+000	5.36658	10.6452	84.6334	9.05082e-07
2515.8	70.7753	6.48572	71.0718	-5.23586	26.9797	0.00409431	0.00170816	9.75405	0.0812282	1	11	0.010703	0.000150595	0	9.49682e-06	0.0140116	0.001284	0.0140703	5.23586	81.2282	886.4	890.114	-84.7641	0.0000000E+000	0.0000000E+000	0.0000000E+000	84.7641	0.0000000E+000	0.0000000E+000	0.0000000E+000	-84.7641	0.0000000E+000	0.0000000E+000	0.0000000E+000	-5.23586	0.0000000E+000	0.0000000E+000	0.0000000E+000	5.23586	10.9125	84.7641	9.37931e-07
1998.08	71.5565	6.5315	71.854	-5.21537	28.683	0.00409393	0.00169084	12.1953	0.100767	1	11	0.0107135	0.000149101	0	1.0376e-05	0.0138595	0.00126506	0.0139171	5.21537	100.767	1103.96	1108.55	-84.7846	0.0000000E+000	0.0000000E+000	0.0000000E+000	84.7846	0.0000000E+000	0.0000000E+000	0.0000000E+000	-84.7846	0.0000000E+000	0.0000000E+000	0.0000000E+000	-5.21537	0.0000000E+000	0.0000000E+000	0.0000000E+000	5.21537	10.9556	84.7846	8.79158e-07
1588.47	72.3239	6.58127	72.6227	-5.19943	30.385	0.00409852	0.0016981	15.2241	0.125027	1	11	0.0107129	0.000147514	0	1.12383e-05	0.0137131	0.00124786	0.0137698	5.19943	125.027	1373.97	1379.64	-84.8006	0.0000000E+000	0.0000000E+000	0.0000000E+000	84.8006	0.0000000E+000	0.0000000E+000	0.0000000E+000	-84.8006	0.0000000E+000	0.0000000E+000	0.0000000E+000	-5.19943	0.0000000E+000	0.0000000E+000	0.0000000E+000	5.19943	10.9894	84.8006	8.62277e-07
1260.4	73.1006	6.79709	73.416	-5.31224	32.0847	0.00409213	0.00179759	18.5775	0.15924	1	11	0.0107186	0.000145998	0	1.19623e-05	0.0135625	0.00126108	0.013621	5.31224	159.24	1712.58	1719.97	-84.6878	0.0000000E+000	0.0000000E+000	0.0000000E+000	84.6878	0.0000000E+000	0.0000000E+000	0.0000000E+000	-84.6878	0.0000000E+000	0.0000000E+000	0.0000000E+000	-5.31224	0.0000000E+000	0.0000000E+000	0.0000000E+000	5.31224	10.7547	84.6878	7.24071e-07
1001.6	73.8931	7.06366	74.2299	-5.46048	33.7825	0.00409785	0.00163904	22.4955	0.203703	1	11	0.0107146	0.000144343	0	1.26555e-05	0.0134105	0.00128195	0.0134717	5.46048	203.703	2130.94	2140.65	-84.5395	0.0000000E+000	0.0000000E+000	0.0000000E+000	84.5395	0.0000000E+000	0.0000000E+000	0.0000000E+000	-84.5395	0.0000000E+000	0.0000000E+000	0.0000000E+000	-5.46048	0.0000000E+000	0.0000000E+000	0.0000000E+000	5.46048	10.461	84.5395	6.93158e-07
795.254	74.6852	7.40574	75.0515	-5.6629	35.4837	0.00408349	0.00174543	27.0237	0.263126	1	11	0.0107121	0.00014273	0	1.35956e-05	0.0132592	0.00131477	0.0133242	5.6629	263.126	2653.57	2666.58	-84.3371	0.0000000E+000	0.0000000E+000	0.0000000E+000	84.3371	0.0000000E+000	0.0000000E+000	0.0000000E+000	-84.3371	0.0000000E+000	0.0000000E+000	0.0000000E+000	-5.6629	0.0000000E+000	0.0000000E+000	0.0000000E+000	5.6629	10.0848	84.3371	9.40065e-07
631.82	75.5901	7.91458	76.0033	-5.97731	37.1802	0.00410184	0.00172214	31.8273	0.345136	1	11	0.0107111	0.00014093	0	1.44455e-05	0.0130858	0.00137013	0.0131573	5.97731	345.135	3296.3	3314.32	-84.0227	0.0000000E+000	0.0000000E+000	0.0000000E+000	84.0227	0.0000000E+000	0.0000000E+000	0.0000000E+000	-84.0227	0.0000000E+000	0.0000000E+000	0.0000000E+000	-5.97731	0.0000000E+000	0.0000000E+000	0.0000000E+000	5.97731	9.55074	84.0227	8.49963e-07
502.089	76.5582	8.49686	77.0283	-6.33309	38.8759	0.00409563	0.00172679	37.3062	0.453939	1	11	0.0107117	0.000139062	0	1.52961e-05	0.012903	0.00143205	0.0129822	6.33309	453.939	4090.07	4115.19	-83.6669	0.0000000E+000	0.0000000E+000	0.0000000E+000	83.6669	0.0000000E+000	0.0000000E+000	0.0000000E+000	-83.6669	0.0000000E+000	0.0000000E+000	0.0000000E+000	-6.33309	0.0000000E+000	0.0000000E+000	0.0000000E+000	6.33309	9.01018	83.6669	8.5056e-07
398.597	77.5725	9.20652	78.1169	-6.76836	40.5805	0.00410204	0.00176462	43.3701	0.602409	1	11	0.0107082	0.000137079	0	1.60863e-05	0.0127121	0.00150871	0.0128013	6.76836	602.409	5075.79	5111.42	-83.2316	0.0000000E+000	0.0000000E+000	0.0000000E+000	83.2316	0.0000000E+000	0.0000000E+000	0.0000000E+000	-83.2316	0.0000000E+000	0.0000000E+000	0.0000000E+000	-6.76836	0.0000000E+000	0.0000000E+000	0.0000000E+000	6.76836	8.42582	83.2316	7.9021e-07
316.723	78.6442	9.98973	79.2762	-7.23919	42.2757	0.00409272	0.0017322	50.3022	0.798746	1	11	0.0107049	0.000135033	0	1.68423e-05	0.0125136	0.00158953	0.0126141	7.23919	798.746	6288.14	6338.67	-82.7608	0.0000000E+000	0.0000000E+000	0.0000000E+000	82.7608	0.0000000E+000	0.0000000E+000	0.0000000E+000	-82.7608	0.0000000E+000	0.0000000E+000	0.0000000E+000	-7.23919	0.0000000E+000	0.0000000E+000	0.0000000E+000	7.23919	7.87251	82.7608	7.56017e-07
251.691	79.8529	10.9453	80.5995	-7.80481	43.9654	0.00409552	0.00175288	57.7728	1.06541	1	11	0.010703	0.000132792	0	1.75809e-05	0.0122921	0.00168486	0.012407	7.80481	1065.41	7772.8	7845.48	-82.1952	0.0000000E+000	0.0000000E+000	0.0000000E+000	82.1952	0.0000000E+000	0.0000000E+000	0.0000000E+000	-82.1952	0.0000000E+000	0.0000000E+000	0.0000000E+000	-7.80481	0.0000000E+000	0.0000000E+000	0.0000000E+000	7.80481	7.29562	82.1952	7.3861e-07
199.808	81.1903	12.0409	82.0783	-8.43572	45.6689	0.00409873	0.00167667	66.1529	1.42367	1	11	0.0107009	0.000130374	0	1.8402e-05	0.0120517	0.00178731	0.0121835	8.43572	1423.67	9599.63	9704.62	-81.5643	0.0000000E+000	0.0000000E+000	0.0000000E+000	81.5643	0.0000000E+000	0.0000000E+000	0.0000000E+000	-81.5643	0.0000000E+000	0.0000000E+000	0.0000000E+000	-8.43572	0.0000000E+000	0.0000000E+000	0.0000000E+000	8.43572	6.74289	81.5643	8.21129e-07
158.629	82.7286	13.2854	83.7886	-9.12328	47.3815	0.0041013	0.00179852	75.5197	1.89864	1	11	0.0107047	0.000127758	0	1.91902e-05	0.0117838	0.00189237	0.0119348	9.12328	1898.64	11822.9	11974.3	-80.8767	0.0000000E+000	0.0000000E+000	0.0000000E+000	80.8767	0.0000000E+000	0.0000000E+000	0.0000000E+000	-80.8767	0.0000000E+000	0.0000000E+000	0.0000000E+000	-9.12328	0.0000000E+000	0.0000000E+000	0.0000000E+000	9.12328	6.22701	80.8767	7.88149e-07
126.008	84.2975	14.6227	85.5563	-9.84093	49.0702	0.00410292	0.00182237	86.3761	2.52316	1	11	0.0106976	0.000125035	0	2.00347e-05	0.0115162	0.00199767	0.0116882	9.84093	2523.16	14545.6	14762.8	-80.1591	0.0000000E+000	0.0000000E+000	0.0000000E+000	80.1591	0.0000000E+000	0.0000000E+000	0.0000000E+000	-80.1591	0.0000000E+000	0.0000000E+000	0.0000000E+000	-9.84093	0.0000000E+000	0.0000000E+000	0.0000000E+000	9.84093	5.76483	80.1591	8.44523e-07
100.16	86.1489	16.219	87.6624	-10.6621	50.7684	0.00409982	0.0017512	97.9718	3.35368	1	11	0.0106999	0.000122058	0	2.09042e-05	0.0112105	0.00211056	0.0114074	10.6621	3353.68	17813.5	18126.4	-79.3379	0.0000000E+000	0.0000000E+000	0.0000000E+000	79.3379	0.0000000E+000	0.0000000E+000	0.0000000E+000	-79.3379	0.0000000E+000	0.0000000E+000	0.0000000E+000	-10.6621	0.0000000E+000	0.0000000E+000	0.0000000E+000	10.6621	5.31161	79.3379	8.69526e-07
79.5165	88.2487	18.0753	90.0807	-11.5753	52.4799	0.00408922	0.00173164	110.733	4.45844	1	11	0.0107092	0.000118884	0	2.16277e-05	0.0108754	0.00222751	0.0111012	11.5753	4458.44	21767.4	22219.3	-78.4247	0.0000000E+000	0.0000000E+000	0.0000000E+000	78.4247	0.0000000E+000	0.0000000E+000	0.0000000E+000	-78.4247	0.0000000E+000	0.0000000E+000	0.0000000E+000	-11.5753	0.0000000E+000	0.0000000E+000	0.0000000E+000	11.5753	4.88229	78.4247	7.23446e-07
63.1608	90.3114	20.0063	92.5008	-12.4908	54.2256	0.00409958	0.00169158	125.952	5.89181	1	11	0.0106986	0.000115659	0	2.24166e-05	0.0105548	0.00233817	0.0108107	12.4908	5891.81	26596.5	27241.3	-77.5092	0.0000000E+000	0.0000000E+000	0.0000000E+000	77.5092	0.0000000E+000	0.0000000E+000	0.0000000E+000	-77.5092	0.0000000E+000	0.0000000E+000	0.0000000E+000	-12.4908	0.0000000E+000	0.0000000E+000	0.0000000E+000	12.4908	4.51415	77.5092	7.88953e-07
50.2089	92.8651	22.283	95.5011	-13.493	55.9209	0.00409237	0.0016886	142.255	7.74455	1	11	0.0107013	0.000112054	0	2.32535e-05	0.0101821	0.00244319	0.0104711	13.493	7744.55	32275.7	33191.8	-76.507	0.0000000E+000	0.0000000E+000	0.0000000E+000	76.507	0.0000000E+000	0.0000000E+000	0.0000000E+000	-76.507	0.0000000E+000	0.0000000E+000	0.0000000E+000	-13.493	0.0000000E+000	0.0000000E+000	0.0000000E+000	13.493	4.16753	76.507	8.3684e-07
39.8597	95.6275	24.7795	98.7859	-14.5273	57.6254	0.00409807	0.00171189	161.136	10.1389	1	11	0.0107017	0.000108332	0	2.39918e-05	0.00979926	0.00253924	0.0101229	14.5273	10138.9	39127.3	40419.5	-75.4727	0.0000000E+000	0.0000000E+000	0.0000000E+000	75.4727	0.0000000E+000	0.0000000E+000	0.0000000E+000	-75.4727	0.0000000E+000	0.0000000E+000	0.0000000E+000	-14.5273	0.0000000E+000	0.0000000E+000	0.0000000E+000	14.5273	3.85914	75.4727	7.3834e-07
31.6723	98.6775	27.6069	102.467	-15.63	59.2432	0.00408774	0.00158929	182.021	13.2128	1	11	0.0106989	0.000104414	0	2.47778e-05	0.0093984	0.00262938	0.00975928	15.63	13212.8	47227.5	49040.9	-74.37	0.0000000E+000	0.0000000E+000	0.0000000E+000	74.37	0.0000000E+000	0.0000000E+000	0.0000000E+000	-74.37	0.0000000E+000	0.0000000E+000	0.0000000E+000	-15.63	0.0000000E+000	0.0000000E+000	0.0000000E+000	15.63	3.57438	74.37	7.85934e-07
25.1367	102.09	30.7708	106.627	-16.7732	60.9377	0.00410514	0.00166326	205.765	17.1364	1	11	0.0106964	0.000100316	0	2.52728e-05	0.00897951	0.0027065	0.00937852	16.7732	17136.4	56854.3	59380.7	-73.2268	0.0000000E+000	0.0000000E+000	0.0000000E+000	73.2268	0.0000000E+000	0.0000000E+000	0.0000000E+000	-73.2268	0.0000000E+000	0.0000000E+000	0.0000000E+000	-16.7732	0.0000000E+000	0.0000000E+000	0.0000000E+000	16.7732	3.31776	73.2268	4.95052e-07
19.9808	105.917	34.33	111.341	-17.9587	62.641	0.0040961	0.00171152	232.024	22.0581	1	11	0.0106975	9.60785e-05	0	2.59913e-05	0.00854381	0.00276924	0.00898139	17.9587	22058.1	68054.8	71540.3	-72.0413	0.0000000E+000	0.0000000E+000	0.0000000E+000	72.0413	0.0000000E+000	0.0000000E+000	0.0000000E+000	-72.0413	0.0000000E+000	0.0000000E+000	0.0000000E+000	-17.9587	0.0000000E+000	0.0000000E+000	0.0000000E+000	17.9587	3.08526	72.0413	7.18455e-07
15.8576	110.16	38.2862	116.624	-19.1649	64.2549	0.00408556	0.00167015	262.145	28.252	1	11	0.010695	9.17051e-05	0	2.68878e-05	0.00809934	0.00281492	0.00857456	19.1649	28252	81289.2	86058.8	-70.8352	0.0000000E+000	0.0000000E+000	0.0000000E+000	70.8352	0.0000000E+000	0.0000000E+000	0.0000000E+000	-70.8352	0.0000000E+000	0.0000000E+000	0.0000000E+000	-19.1649	0.0000000E+000	0.0000000E+000	0.0000000E+000	19.1649	2.87729	70.8352	8.96542e-07
12.6008	115.018	42.6695	122.678	-20.3539	66.2589	0.00407667	0.00111801	296.009	35.8102	1	11	0.0107019	8.72355e-05	0	2.73368e-05	0.00764247	0.00283521	0.00815143	20.3539	35810.2	96528.5	102957	-69.6461	0.0000000E+000	0.0000000E+000	0.0000000E+000	69.6461	0.0000000E+000	0.0000000E+000	0.0000000E+000	-69.6461	0.0000000E+000	0.0000000E+000	0.0000000E+000	-20.3539	0.0000000E+000	0.0000000E+000	0.0000000E+000	20.3539	2.69556	69.6461	4.48964e-07
10.016	120.366	47.6958	129.471	-21.6163	68.2094	0.00408204	6.76374e-05	333.154	45.2125	1	12	0.0106937	8.25948e-05	0	2.81666e-05	0.00718053	0.00284534	0.00772373	21.6163	45212.5	114099	122730	-68.3837	0.0000000E+000	0.0000000E+000	0.0000000E+000	68.3837	0.0000000E+000	0.0000000E+000	0.0000000E+000	-68.3837	0.0000000E+000	0.0000000E+000	0.0000000E+000	-21.6163	0.0000000E+000	0.0000000E+000	0.0000000E+000	21.6163	2.52361	68.3837	8.29796e-07
7.9557	126.478	53.0833	137.166	-22.768	70.3182	0.00408404	0.00011498	376.863	56.4425	1	12	0.0107014	7.80182e-05	0	2.82644e-05	0.00672236	0.0028214	0.00729043	22.768	56442.5	134482	145846	-67.232	0.0000000E+000	0.0000000E+000	0.0000000E+000	67.232	0.0000000E+000	0.0000000E+000	0.0000000E+000	-67.232	0.0000000E+000	0.0000000E+000	0.0000000E+000	-22.768	0.0000000E+000	0.0000000E+000	0.0000000E+000	22.768	2.38263	67.232	9.7812e-08
6.31058	133.251	58.9439	145.706	-23.8623	71.6942	0.0040603	-9.86077e-05	427.87	70.0222	1	12	0.010697	7.3415e-05	0	2.74575e-05	0.00627649	0.00277642	0.00686315	23.8623	70022.2	158295	173091	-66.1377	0.0000000E+000	0.0000000E+000	0.0000000E+000	66.1377	0.0000000E+000	0.0000000E+000	0.0000000E+000	-66.1377	0.0000000E+000	0.0000000E+000	0.0000000E+000	-23.8623	0.0000000E+000	0.0000000E+000	0.0000000E+000	23.8623	2.26064	66.1377	-8.0689e-07
5.01444	140.477	65.289	154.908	-24.9274	73.3912	0.00408905	0.000105869	486.135	86.3552	1	12	0.0106944	6.9037e-05	0	2.82955e-05	0.00585406	0.00272076	0.00645543	24.9274	86355.2	185804	204891	-65.0726	0.0000000E+000	0.0000000E+000	0.0000000E+000	65.0726	0.0000000E+000	0.0000000E+000	0.0000000E+000	-65.0726	0.0000000E+000	0.0000000E+000	0.0000000E+000	-24.9274	0.0000000E+000	0.0000000E+000	0.0000000E+000	24.9274	2.15162	65.0726	8.38056e-07
3.98597	148.127	72.2642	164.814	-26.0056	75.4946	0.00408509	4.63386e-05	552.539	106.223	1	12	0.0106961	6.48979e-05	0	2.73056e-05	0.00545312	0.00266032	0.00606744	26.0056	106223	217737	242266	-63.9944	0.0000000E+000	0.0000000E+000	0.0000000E+000	63.9944	0.0000000E+000	0.0000000E+000	0.0000000E+000	-63.9944	0.0000000E+000	0.0000000E+000	0.0000000E+000	-26.0056	0.0000000E+000	0.0000000E+000	0.0000000E+000	26.0056	2.0498	63.9944	-9.89914e-07
3.16552	156.037	80.0564	175.375	-27.1606	78.1157	0.00408345	2.59446e-05	628.028	130.868	1	12	0.0106987	6.10048e-05	0	2.8318e-05	0.00507329	0.00260291	0.00570205	27.1606	130868	255073	286686	-62.8394	0.0000000E+000	0.0000000E+000	0.0000000E+000	62.8394	0.0000000E+000	0.0000000E+000	0.0000000E+000	-62.8394	0.0000000E+000	0.0000000E+000	0.0000000E+000	-27.1606	0.0000000E+000	0.0000000E+000	0.0000000E+000	27.1606	1.94909	62.8394	1.01242e-06
2.51367	164.126	89.0833	186.744	-28.4919	81.3877	0.00409038	7.40908e-05	710.746	161.739	1	12	0.0107001	5.72984e-05	0	2.88328e-05	0.00470636	0.00255449	0.00535493	28.4919	161739	297986	339051	-61.5081	0.0000000E+000	0.0000000E+000	0.0000000E+000	61.5081	0.0000000E+000	0.0000000E+000	0.0000000E+000	-61.5081	0.0000000E+000	0.0000000E+000	0.0000000E+000	-28.4919	0.0000000E+000	0.0000000E+000	0.0000000E+000	28.4919	1.84239	61.5081	5.14786e-07
1.99706	172.035	100.07	199.023	-30.1857	85.4837	0.00408946	0.000101341	796.392	201.338	1	12	0.0106999	5.37623e-05	0	2.81238e-05	0.00434322	0.00252637	0.00502455	30.1857	201338	346132	400430	-59.8143	0.0000000E+000	0.0000000E+000	0.0000000E+000	59.8143	0.0000000E+000	0.0000000E+000	0.0000000E+000	-59.8143	0.0000000E+000	0.0000000E+000	0.0000000E+000	-30.1857	0.0000000E+000	0.0000000E+000	0.0000000E+000	30.1857	1.71916	59.8143	-7.09037e-07
1.58469	180.023	113.669	212.906	-32.2689	90.62	0.00409654	0.000109186	883.556	251.851	1	12	0.0106979	5.02471e-05	0	2.73516e-05	0.00397148	0.00250765	0.00469691	32.2689	251851	398868	471725	-57.7311	0.0000000E+000	0.0000000E+000	0.0000000E+000	57.7311	0.0000000E+000	0.0000000E+000	0.0000000E+000	-57.7311	0.0000000E+000	0.0000000E+000	0.0000000E+000	-32.2689	0.0000000E+000	0.0000000E+000	0.0000000E+000	32.2689	1.58374	57.7311	-7.72171e-07
1.25967	188.204	130.79	229.187	-34.7968	97.0579	0.00409922	0.000127922	966.023	314.597	1	12	0.0106994	4.66841e-05	0	2.72279e-05	0.00358301	0.00248996	0.00436324	34.7968	314597	452699	551278	-55.2032	0.0000000E+000	0.0000000E+000	0.0000000E+000	55.2032	0.0000000E+000	0.0000000E+000	0.0000000E+000	-55.2032	0.0000000E+000	0.0000000E+000	0.0000000E+000	-34.7968	0.0000000E+000	0.0000000E+000	0.0000000E+000	34.7968	1.43898	55.2032	-1.23756e-07
1.00006	197.225	152.15	249.093	-37.6486	106.193	0.00409593	2.25428e-05	1045.97	390.25	1	13	0.0107021	4.29644e-05	0	2.79187e-05	0.00317862	0.00245217	0.00401457	37.6486	390250	505861	638898	-52.3514	0.0000000E+000	0.0000000E+000	0.0000000E+000	52.3514	0.0000000E+000	0.0000000E+000	0.0000000E+000	-52.3514	0.0000000E+000	0.0000000E+000	0.0000000E+000	-37.6486	0.0000000E+000	0.0000000E+000	0.0000000E+000	37.6486	1.29625	52.3514	6.90868e-07
0.794438	207.312	178.629	273.654	-40.7496	116.349	0.00410333	1.76688e-05	1121.52	477.868	1	13	0.0106997	3.90992e-05	0	2.87293e-05	0.00276835	0.00238532	0.00365424	40.7496	477868	554601	732079	-49.2504	0.0000000E+000	0.0000000E+000	0.0000000E+000	49.2504	0.0000000E+000	0.0000000E+000	0.0000000E+000	-49.2504	0.0000000E+000	0.0000000E+000	0.0000000E+000	-40.7496	0.0000000E+000	0.0000000E+000	0.0000000E+000	40.7496	1.16057	49.2504	8.10517e-07
0.631262	219.043	211.169	304.257	-43.9514	129.109	0.00410591	1.71422e-05	1193.93	575.121	1	13	0.0107043	3.51817e-05	0	2.94621e-05	0.00236619	0.00228112	0.0032867	43.9514	575121	596567	828648	-46.0486	0.0000000E+000	0.0000000E+000	0.0000000E+000	46.0486	0.0000000E+000	0.0000000E+000	0.0000000E+000	-46.0486	0.0000000E+000	0.0000000E+000	0.0000000E+000	-43.9514	0.0000000E+000	0.0000000E+000	0.0000000E+000	43.9514	1.03729	46.0486	7.32806e-07
0.501187	232.934	251.264	342.625	-47.1679	145.156	0.00410236	2.64299e-05	1263.83	679.692	1	13	0.0107006	3.12312e-05	0	3.03557e-05	0.00198424	0.00214038	0.00291864	47.1679	679692	630109	926832	-42.8321	0.0000000E+000	0.0000000E+000	0.0000000E+000	42.8321	0.0000000E+000	0.0000000E+000	0.0000000E+000	-42.8321	0.0000000E+000	0.0000000E+000	0.0000000E+000	-47.1679	0.0000000E+000	0.0000000E+000	0.0000000E+000	47.1679	0.927051	42.8321	8.93667e-07
0.398678	249.218	299.471	389.605	-50.233	165.313	0.00410382	1.59666e-05	1333.04	787.594	1	13	0.0106973	2.74567e-05	0	3.10916e-05	0.00164183	0.0019729	0.0025667	50.233	787594	655430	1.02464e+06	-39.767	0.0000000E+000	0.0000000E+000	0.0000000E+000	39.767	0.0000000E+000	0.0000000E+000	0.0000000E+000	-39.767	0.0000000E+000	0.0000000E+000	0.0000000E+000	-50.233	0.0000000E+000	0.0000000E+000	0.0000000E+000	50.233	0.832192	39.767	7.35846e-07
0.316193	268.848	358.476	448.089	-53.131	190.704	0.00409407	1.95618e-05	1404.13	898.666	1	13	0.0106971	2.38728e-05	0	3.16877e-05	0.00133899	0.00178538	0.0022317	53.131	898666	673977	1.12332e+06	-36.869	0.0000000E+000	0.0000000E+000	0.0000000E+000	36.869	0.0000000E+000	0.0000000E+000	0.0000000E+000	-36.869	0.0000000E+000	0.0000000E+000	0.0000000E+000	-53.131	0.0000000E+000	0.0000000E+000	0.0000000E+000	53.131	0.749975	36.869	5.9615e-07
0.251173	292.145	428.983	519.013	-55.7444	222.649	0.00409868	1.87436e-05	1477.09	1009.09	1	13	0.0106969	2.061e-05	0	3.2157e-05	0.00108453	0.00159251	0.00192673	55.7444	1.00909e+06	687208	1.22087e+06	-34.2556	0.0000000E+000	0.0000000E+000	0.0000000E+000	34.2556	0.0000000E+000	0.0000000E+000	0.0000000E+000	-34.2556	0.0000000E+000	0.0000000E+000	0.0000000E+000	-55.7444	0.0000000E+000	0.0000000E+000	0.0000000E+000	55.7444	0.681019	34.2556	4.69313e-07
0.199808	319.506	513.226	604.553	-58.0959	262.789	0.00410132	1.90358e-05	1552.02	1118.53	1	13	0.0106975	1.76948e-05	0	3.25373e-05	0.000874197	0.00140423	0.00165411	58.0959	1.11853e+06	696332	1.31757e+06	-31.9041	0.0000000E+000	0.0000000E+000	0.0000000E+000	31.9041	0.0000000E+000	0.0000000E+000	0.0000000E+000	-31.9041	0.0000000E+000	0.0000000E+000	0.0000000E+000	-58.0959	0.0000000E+000	0.0000000E+000	0.0000000E+000	58.0959	0.622544	31.9041	3.80226e-07
0.158469	352.232	616.068	709.653	-60.2416	313.378	0.00410142	1.12664e-05	1630.23	1228.61	1	13	0.0106973	1.5074e-05	0	3.287e-05	0.000699419	0.00122331	0.00140914	60.2416	1.22861e+06	702448	1.41524e+06	-29.7584	0.0000000E+000	0.0000000E+000	0.0000000E+000	29.7584	0.0000000E+000	0.0000000E+000	0.0000000E+000	-29.7584	0.0000000E+000	0.0000000E+000	0.0000000E+000	-60.2416	0.0000000E+000	0.0000000E+000	0.0000000E+000	60.2416	0.571742	29.7584	3.32731e-07
0.125907	390.059	738.959	835.588	-62.1727	377.032	0.00409857	1.36957e-05	1710.61	1337.85	1	13	0.0106988	1.2804e-05	0	3.31735e-05	0.000558659	0.00105837	0.00119676	62.1727	1.33785e+06	706185	1.51279e+06	-27.8273	0.0000000E+000	0.0000000E+000	0.0000000E+000	27.8273	0.0000000E+000	0.0000000E+000	0.0000000E+000	-27.8273	0.0000000E+000	0.0000000E+000	0.0000000E+000	-62.1727	0.0000000E+000	0.0000000E+000	0.0000000E+000	62.1727	0.52785	27.8273	3.03487e-07
0.10014	434.301	886.521	987.186	-63.9	457.047	0.00409522	1.43955e-05	1792.77	1445.79	1	13	0.0106971	1.08359e-05	0	3.34841e-05	0.000445649	0.000909685	0.00101298	63.9	1.44579e+06	708283	1.60996e+06	-26.1	0.0000000E+000	0.0000000E+000	0.0000000E+000	26.1	0.0000000E+000	0.0000000E+000	0.0000000E+000	-26.1	0.0000000E+000	0.0000000E+000	0.0000000E+000	-63.9	0.0000000E+000	0.0000000E+000	0.0000000E+000	63.9	0.489894	26.1	3.10587e-07
0.0794212	486.652	1067.49	1173.19	-65.4926	557.916	0.00410038	1.42097e-05	1877.23	1554.22	1	13	0.0106967	9.11767e-06	0	3.38713e-05	0.000353576	0.000775585	0.000852378	65.4926	1.55422e+06	708543	1.70811e+06	-24.5074	0.0000000E+000	0.0000000E+000	0.0000000E+000	24.5074	0.0000000E+000	0.0000000E+000	0.0000000E+000	-24.5074	0.0000000E+000	0.0000000E+000	0.0000000E+000	-65.4926	0.0000000E+000	0.0000000E+000	0.0000000E+000	65.4926	0.455883	24.5074	3.87241e-07
0.0631017	547.602	1284.85	1396.67	-66.9163	684.854	0.00409528	1.43282e-05	1963.03	1661.27	1	13	0.0106933	7.65624e-06	0	3.45756e-05	0.000280721	0.00065866	0.000715987	66.9163	1.66127e+06	708034	1.80586e+06	-23.0837	0.0000000E+000	0.0000000E+000	0.0000000E+000	23.0837	0.0000000E+000	0.0000000E+000	0.0000000E+000	-23.0837	0.0000000E+000	0.0000000E+000	0.0000000E+000	-66.9163	0.0000000E+000	0.0000000E+000	0.0000000E+000	66.9163	0.426201	23.0837	7.04278e-07
0.0501541	619.324	1548.84	1668.07	-68.2053	844.546	0.00409371	1.48909e-05	2048.84	1766.41	1	13	0.010695	6.41163e-06	0	3.50177e-05	0.000222582	0.000556643	0.000599495	68.2053	1.76641e+06	706323	1.90239e+06	-21.7947	0.0000000E+000	0.0000000E+000	0.0000000E+000	21.7947	0.0000000E+000	0.0000000E+000	0.0000000E+000	-21.7947	0.0000000E+000	0.0000000E+000	0.0000000E+000	-68.2053	0.0000000E+000	0.0000000E+000	0.0000000E+000	68.2053	0.399864	21.7947	4.4212e-07
0.0398045	704.897	1872.9	2001.16	-69.3753	1045.74	0.00410931	1.52932e-05	2134.89	1870	1	13	0.0106972	5.34549e-06	0	3.56795e-05	0.000176021	0.000467684	0.000499711	69.3753	1.87e+06	703805	1.99806e+06	-20.6247	0.0000000E+000	0.0000000E+000	0.0000000E+000	20.6247	0.0000000E+000	0.0000000E+000	0.0000000E+000	-20.6247	0.0000000E+000	0.0000000E+000	0.0000000E+000	-69.3753	0.0000000E+000	0.0000000E+000	0.0000000E+000	69.3753	0.376367	20.6247	6.61813e-07
0.0315922	806.548	2267.31	2406.49	-70.4181	1330.95	0.00410569	3.38199e-06	2221.92	1972.34	1	14	0.0106969	4.44503e-06	0	3.60946e-05	0.000139271	0.000391508	0.000415542	70.4181	1.97234e+06	701618	2.09341e+06	-19.5819	0.0000000E+000	0.0000000E+000	0.0000000E+000	19.5819	0.0000000E+000	0.0000000E+000	0.0000000E+000	-19.5819	0.0000000E+000	0.0000000E+000	0.0000000E+000	-70.4181	0.0000000E+000	0.0000000E+000	0.0000000E+000	70.4181	0.355729	19.5819	4.15058e-07
0.025145	925.962	2740.59	2892.79	-71.3314	1649.4	0.00410026	2.87586e-06	2309.54	2072.9	1	14	0.010698	3.69817e-06	0	3.60695e-05	0.000110652	0.000327499	0.000345687	71.3314	2.0729e+06	700371	2.18802e+06	-18.6686	0.0000000E+000	0.0000000E+000	0.0000000E+000	18.6686	0.0000000E+000	0.0000000E+000	0.0000000E+000	-18.6686	0.0000000E+000	0.0000000E+000	0.0000000E+000	-71.3314	0.0000000E+000	0.0000000E+000	0.0000000E+000	71.3314	0.33787	18.6686	-2.50423e-08
0.0199494	1073.43	3327.09	3495.97	-72.1186	2050.77	0.00410931	3.08932e-06	2397.87	2171.8	1	14	0.0106972	3.05986e-06	0	3.61453e-05	8.78291e-05	0.000272226	0.000286044	72.1186	2.1718e+06	700695	2.28204e+06	-17.8814	0.0000000E+000	0.0000000E+000	0.0000000E+000	17.8814	0.0000000E+000	0.0000000E+000	0.0000000E+000	-17.8814	0.0000000E+000	0.0000000E+000	0.0000000E+000	-72.1186	0.0000000E+000	0.0000000E+000	0.0000000E+000	72.1186	0.322633	17.8814	7.57774e-08
0.0158607	1253.45	4040.07	4230.05	-72.7632	2555.59	0.0041096	2.5038e-06	2483.76	2265.67	1	14	0.0106979	2.52902e-06	0	3.62401e-05	7.00514e-05	0.000225786	0.000236404	72.7632	2.26567e+06	702934	2.37221e+06	-17.2368	0.0000000E+000	0.0000000E+000	0.0000000E+000	17.2368	0.0000000E+000	0.0000000E+000	0.0000000E+000	-17.2368	0.0000000E+000	0.0000000E+000	0.0000000E+000	-72.7632	0.0000000E+000	0.0000000E+000	0.0000000E+000	72.7632	0.310255	17.2368	9.47724e-08
0.0125768	1479.44	4920.92	5138.5	-73.267	3192.21	0.00410296	2.75869e-06	2571.6	2358.43	1	14	0.0106983	2.08198e-06	0	3.64375e-05	5.60303e-05	0.000186369	0.000194609	73.267	2.35843e+06	709044	2.46271e+06	-16.733	0.0000000E+000	0.0000000E+000	0.0000000E+000	16.733	0.0000000E+000	0.0000000E+000	0.0000000E+000	-16.733	0.0000000E+000	0.0000000E+000	0.0000000E+000	-73.267	0.0000000E+000	0.0000000E+000	0.0000000E+000	73.267	0.300642	16.733	1.97442e-07
0.0100092	1758.16	5979.11	6232.24	-73.614	3992.11	0.00411077	2.25084e-06	2659.41	2447.77	1	14	0.0106974	1.71647e-06	0	3.653e-05	4.52656e-05	0.000153939	0.000160456	73.614	2.44777e+06	719765	2.5514e+06	-16.386	0.0000000E+000	0.0000000E+000	0.0000000E+000	16.386	0.0000000E+000	0.0000000E+000	0.0000000E+000	-16.386	0.0000000E+000	0.0000000E+000	0.0000000E+000	-73.614	0.0000000E+000	0.0000000E+000	0.0000000E+000	73.614	0.29405	16.386	9.24538e-08